{
  "resourceType" : "Bundle",
  "id" : "example-dispense-notification",
  "meta" : {
    "profile" : ["https://dhin.org/2025Connectathon/StructureDefinition/ng-dispense-notification-bundle"]
  },
  "type" : "collection",
  "timestamp" : "2025-08-06T10:45:00+01:00",
  "entry" : [{
    "fullUrl" : "urn:uuid:dispense-001",
    "resource" : {
      "resourceType" : "MedicationDispense",
      "id" : "dispense-001",
      "meta" : {
        "profile" : ["https://dhin.org/2025Connectathon/StructureDefinition/ng-medication-dispense"]
      },
      "text" : {
        "status" : "generated",
        "div" : "<div xmlns=\"http://www.w3.org/1999/xhtml\"><a name=\"MedicationDispense_dispense-001\"> </a><p class=\"res-header-id\"><b>Generated Narrative: MedicationDispense dispense-001</b></p><a name=\"dispense-001\"> </a><a name=\"hcdispense-001\"> </a><div style=\"display: inline-block; background-color: #d9e0e7; padding: 6px; margin: 4px; border: 1px solid #8da1b4; border-radius: 5px; line-height: 60%\"><p style=\"margin-bottom: 0px\"/><p style=\"margin-bottom: 0px\">Profile: <a href=\"StructureDefinition-ng-medication-dispense.html\">NG MedicationDispense</a></p></div><p><b>status</b>: Completed</p><p><b>medication</b>: <span title=\"Codes:{http://www.nlm.nih.gov/research/umls/rxnorm 723}\">Amoxicillin 250mg Capsule</span></p><p><b>subject</b>: <a href=\"Patient-patient-001.html\">Chinedu Okoro  Male, DoB: 1990-06-15 ( https://nimc.gov.ng#NIN123456789)</a></p><p><b>context</b>: <a href=\"Encounter/example-encounter\">Encounter/example-encounter</a></p><h3>Performers</h3><table class=\"grid\"><tr><td style=\"display: none\">-</td><td><b>Actor</b></td></tr><tr><td style=\"display: none\">*</td><td><a href=\"Practitioner/pharmacist-001\">Practitioner/pharmacist-001</a></td></tr></table><p><b>quantity</b>: 21 capsule</p><p><b>whenHandedOver</b>: 2025-08-05 10:30:00+0100</p><blockquote><p><b>dosageInstruction</b></p><p><b>text</b>: Take one capsule three times daily for 7 days</p><p><b>timing</b>: 3 per 1 day</p><h3>DoseAndRates</h3><table class=\"grid\"><tr><td style=\"display: none\">-</td><td><b>Dose[x]</b></td></tr><tr><td style=\"display: none\">*</td><td>1 capsule</td></tr></table></blockquote></div>"
      },
      "status" : "completed",
      "medicationCodeableConcept" : {
        "coding" : [{
          "system" : "http://www.nlm.nih.gov/research/umls/rxnorm",
          "code" : "723",
          "display" : "Amoxicillin 250mg Capsule"
        }]
      },
      "subject" : {
        "reference" : "Patient/patient-001"
      },
      "context" : {
        "reference" : "Encounter/example-encounter"
      },
      "performer" : [{
        "actor" : {
          "reference" : "Practitioner/pharmacist-001"
        }
      }],
      "quantity" : {
        "value" : 21,
        "unit" : "capsule"
      },
      "whenHandedOver" : "2025-08-05T10:30:00+01:00",
      "dosageInstruction" : [{
        "text" : "Take one capsule three times daily for 7 days",
        "timing" : {
          "repeat" : {
            "frequency" : 3,
            "period" : 1,
            "periodUnit" : "d"
          }
        },
        "doseAndRate" : [{
          "doseQuantity" : {
            "value" : 1,
            "unit" : "capsule"
          }
        }]
      }]
    }
  },
  {
    "fullUrl" : "urn:uuid:patient-001",
    "resource" : {
      "resourceType" : "Patient",
      "id" : "patient-001",
      "meta" : {
        "lastUpdated" : "2025-07-30T10:20:00+01:00",
        "profile" : ["https://dhin.org/2025Connectathon/StructureDefinition/NgPatient"]
      },
      "text" : {
        "status" : "generated",
        "div" : "<div xmlns=\"http://www.w3.org/1999/xhtml\"><a name=\"Patient_patient-001\"> </a><p class=\"res-header-id\"><b>Generated Narrative: Patient patient-001</b></p><a name=\"patient-001\"> </a><a name=\"hcpatient-001\"> </a><div style=\"display: inline-block; background-color: #d9e0e7; padding: 6px; margin: 4px; border: 1px solid #8da1b4; border-radius: 5px; line-height: 60%\"><p style=\"margin-bottom: 0px\">Last updated: 2025-07-30 10:20:00+0100</p><p style=\"margin-bottom: 0px\">Profile: <a href=\"StructureDefinition-NgPatient.html\">NG Patient</a></p></div><p style=\"border: 1px #661aff solid; background-color: #e6e6ff; padding: 10px;\">Chinedu Okoro  Male, DoB: 1990-06-15 ( https://nimc.gov.ng#NIN123456789)</p><hr/><table class=\"grid\"><tr><td style=\"background-color: #f3f5da\" title=\"Record is active\">Active:</td><td colspan=\"3\">true</td></tr><tr><td style=\"background-color: #f3f5da\" title=\"Ways to contact the Patient\">Contact Detail</td><td colspan=\"3\">23 Market Road Nsukka Enugu </td></tr><tr><td style=\"background-color: #f3f5da\" title=\"Language spoken\">Language:</td><td colspan=\"3\"><span title=\"Codes:{urn:ietf:bcp:47 ig}\">Igbo</span></td></tr><tr><td style=\"background-color: #f3f5da\" title=\"Patient contact\">Contact:</td><td colspan=\"3\"><ul><li>Ngozi Okoro </li><li>23 Market Road Nsukka Enugu </li><li><a href=\"tel:+2348123456789\">+2348123456789</a></li></ul></td></tr></table></div>"
      },
      "identifier" : [{
        "system" : "https://nimc.gov.ng",
        "value" : "NIN123456789"
      }],
      "active" : true,
      "name" : [{
        "family" : "Okoro",
        "given" : ["Chinedu"]
      }],
      "gender" : "male",
      "birthDate" : "1990-06-15",
      "address" : [{
        "line" : ["23 Market Road"],
        "city" : "Nsukka",
        "district" : "nsukka",
        "state" : "Enugu"
      }],
      "photo" : [{
        "contentType" : "image/jpeg",
        "url" : "https://example.org/patient-photos/chinedu-okoro.jpg",
        "size" : 245600,
        "title" : "Chinedu Okoro profile photo"
      }],
      "contact" : [{
        "name" : {
          "family" : "Okoro",
          "given" : ["Ngozi"]
        },
        "telecom" : [{
          "system" : "phone",
          "value" : "+2348123456789"
        }],
        "address" : {
          "line" : ["23 Market Road"],
          "city" : "Nsukka",
          "district" : "nsukka",
          "state" : "Enugu"
        }
      }],
      "communication" : [{
        "language" : {
          "coding" : [{
            "system" : "urn:ietf:bcp:47",
            "code" : "ig",
            "display" : "Igbo"
          }]
        }
      }]
    }
  },
  {
    "fullUrl" : "urn:uuid:practitioner-001",
    "resource" : {
      "resourceType" : "Practitioner",
      "id" : "practitioner-001",
      "meta" : {
        "profile" : ["https://dhin.org/2025Connectathon/StructureDefinition/NgPractitioner"]
      },
      "text" : {
        "status" : "generated",
        "div" : "<div xmlns=\"http://www.w3.org/1999/xhtml\"><a name=\"Practitioner_practitioner-001\"> </a><p class=\"res-header-id\"><b>Generated Narrative: Practitioner practitioner-001</b></p><a name=\"practitioner-001\"> </a><a name=\"hcpractitioner-001\"> </a><div style=\"display: inline-block; background-color: #d9e0e7; padding: 6px; margin: 4px; border: 1px solid #8da1b4; border-radius: 5px; line-height: 60%\"><p style=\"margin-bottom: 0px\"/><p style=\"margin-bottom: 0px\">Profile: <a href=\"StructureDefinition-NgPractitioner.html\">NG Practitioner</a></p></div><p><b>identifier</b>: <code>https://mdcn.gov.ng</code>/MDCN-457812</p><p><b>active</b>: true</p><p><b>name</b>: Chinelo Okoye </p><p><b>telecom</b>: ph: 08011223344</p><p><b>birthDate</b>: 1982-03-10</p><h3>Qualifications</h3><table class=\"grid\"><tr><td style=\"display: none\">-</td><td><b>Code</b></td><td><b>Period</b></td><td><b>Issuer</b></td></tr><tr><td style=\"display: none\">*</td><td><span title=\"Codes:\">MEDCERT-2023</span></td><td>2023-01-01 --&gt; 2028-12-31</td><td><a href=\"Organization-organization-001.html\">Organization Sunlight Medical Center</a></td></tr></table></div>"
      },
      "identifier" : [{
        "system" : "https://mdcn.gov.ng",
        "value" : "MDCN-457812"
      }],
      "active" : true,
      "name" : [{
        "family" : "Okoye",
        "given" : ["Chinelo"]
      }],
      "telecom" : [{
        "system" : "phone",
        "value" : "08011223344"
      }],
      "birthDate" : "1982-03-10",
      "qualification" : [{
        "code" : {
          "text" : "MEDCERT-2023"
        },
        "period" : {
          "start" : "2023-01-01",
          "end" : "2028-12-31"
        },
        "issuer" : {
          "reference" : "Organization/organization-001"
        }
      }]
    }
  },
  {
    "fullUrl" : "urn:uuid:organization-001",
    "resource" : {
      "resourceType" : "Organization",
      "id" : "organization-001",
      "meta" : {
        "profile" : ["https://dhin.org/2025Connectathon/StructureDefinition/ng-imm-organization"]
      },
      "text" : {
        "status" : "generated",
        "div" : "<div xmlns=\"http://www.w3.org/1999/xhtml\"><a name=\"Organization_organization-001\"> </a><p class=\"res-header-id\"><b>Generated Narrative: Organization organization-001</b></p><a name=\"organization-001\"> </a><a name=\"hcorganization-001\"> </a><div style=\"display: inline-block; background-color: #d9e0e7; padding: 6px; margin: 4px; border: 1px solid #8da1b4; border-radius: 5px; line-height: 60%\"><p style=\"margin-bottom: 0px\"/><p style=\"margin-bottom: 0px\">Profile: <a href=\"StructureDefinition-ng-imm-organization.html\">NG Organization</a></p></div><p><b>identifier</b>: <code>https://herfama.lagos.ng</code>/HF-0001</p><p><b>active</b>: true</p><p><b>type</b>: <span title=\"Codes:{http://terminology.hl7.org/CodeSystem/organization-type prov}\">Healthcare Provider</span></p><p><b>name</b>: Sunlight Medical Center</p><p><b>telecom</b>: <a href=\"tel:+2348012345678\">+2348012345678</a></p><p><b>address</b>: 12 Ikoyi Crescent Lagos Lagos </p></div>"
      },
      "identifier" : [{
        "system" : "https://herfama.lagos.ng",
        "value" : "HF-0001"
      }],
      "active" : true,
      "type" : [{
        "coding" : [{
          "system" : "http://terminology.hl7.org/CodeSystem/organization-type",
          "code" : "prov",
          "display" : "Healthcare Provider"
        }]
      }],
      "name" : "Sunlight Medical Center",
      "telecom" : [{
        "system" : "phone",
        "value" : "+2348012345678"
      }],
      "address" : [{
        "line" : ["12 Ikoyi Crescent"],
        "city" : "Lagos",
        "district" : "ikeja",
        "state" : "Lagos"
      }]
    }
  },
  {
    "fullUrl" : "urn:uuid:medicationrequest-001",
    "resource" : {
      "resourceType" : "MedicationRequest",
      "id" : "medicationrequest-001",
      "meta" : {
        "profile" : ["https://dhin.org/2025Connectathon/StructureDefinition/ng-medication-request"]
      },
      "text" : {
        "status" : "generated",
        "div" : "<div xmlns=\"http://www.w3.org/1999/xhtml\"><a name=\"MedicationRequest_medicationrequest-001\"> </a><p class=\"res-header-id\"><b>Generated Narrative: MedicationRequest medicationrequest-001</b></p><a name=\"medicationrequest-001\"> </a><a name=\"hcmedicationrequest-001\"> </a><div style=\"display: inline-block; background-color: #d9e0e7; padding: 6px; margin: 4px; border: 1px solid #8da1b4; border-radius: 5px; line-height: 60%\"><p style=\"margin-bottom: 0px\"/><p style=\"margin-bottom: 0px\">Profile: <a href=\"StructureDefinition-ng-medication-request.html\">NG MedicationRequest</a></p></div><p><b>status</b>: Active</p><p><b>intent</b>: Order</p><p><b>medication</b>: <span title=\"Codes:{http://www.nlm.nih.gov/research/umls/rxnorm 723}\">Amoxicillin 250mg Capsule</span></p><p><b>subject</b>: <code>NgPatient/patient-001</code></p><p><b>encounter</b>: <code>NgEncounter/encounter-001</code></p><p><b>authoredOn</b>: 2025-08-05</p><p><b>requester</b>: <code>NgPractitioner/practitioner-001</code></p><p><b>recorder</b>: <code>NgPractitioner/practitioner-001</code></p><blockquote><p><b>dosageInstruction</b></p><p><b>text</b>: Take one capsule three times a day for 7 days</p><p><b>timing</b>: 3 per 1 day</p><h3>DoseAndRates</h3><table class=\"grid\"><tr><td style=\"display: none\">-</td><td><b>Dose[x]</b></td></tr><tr><td style=\"display: none\">*</td><td>1 capsule</td></tr></table></blockquote><h3>DispenseRequests</h3><table class=\"grid\"><tr><td style=\"display: none\">-</td><td><b>ValidityPeriod</b></td><td><b>Quantity</b></td></tr><tr><td style=\"display: none\">*</td><td>2025-08-05 --&gt; 2025-08-12</td><td>21 capsule</td></tr></table></div>"
      },
      "status" : "active",
      "intent" : "order",
      "medicationCodeableConcept" : {
        "coding" : [{
          "system" : "http://www.nlm.nih.gov/research/umls/rxnorm",
          "code" : "723",
          "display" : "Amoxicillin 250mg Capsule"
        }]
      },
      "subject" : {
        "reference" : "NgPatient/patient-001"
      },
      "encounter" : {
        "reference" : "NgEncounter/encounter-001"
      },
      "authoredOn" : "2025-08-05",
      "requester" : {
        "reference" : "NgPractitioner/practitioner-001"
      },
      "recorder" : {
        "reference" : "NgPractitioner/practitioner-001"
      },
      "dosageInstruction" : [{
        "text" : "Take one capsule three times a day for 7 days",
        "timing" : {
          "repeat" : {
            "frequency" : 3,
            "period" : 1,
            "periodUnit" : "d"
          }
        },
        "doseAndRate" : [{
          "doseQuantity" : {
            "value" : 1,
            "unit" : "capsule"
          }
        }]
      }],
      "dispenseRequest" : {
        "validityPeriod" : {
          "start" : "2025-08-05",
          "end" : "2025-08-12"
        },
        "quantity" : {
          "value" : 21,
          "unit" : "capsule"
        }
      }
    }
  },
  {
    "fullUrl" : "urn:uuid:medication-001",
    "resource" : {
      "resourceType" : "Medication",
      "id" : "medication-001",
      "meta" : {
        "profile" : ["https://dhin.org/2025Connectathon/StructureDefinition/ng-medication"]
      },
      "text" : {
        "status" : "generated",
        "div" : "<div xmlns=\"http://www.w3.org/1999/xhtml\"><a name=\"Medication_medication-001\"> </a><p class=\"res-header-id\"><b>Generated Narrative: Medication medication-001</b></p><a name=\"medication-001\"> </a><a name=\"hcmedication-001\"> </a><div style=\"display: inline-block; background-color: #d9e0e7; padding: 6px; margin: 4px; border: 1px solid #8da1b4; border-radius: 5px; line-height: 60%\"><p style=\"margin-bottom: 0px\"/><p style=\"margin-bottom: 0px\">Profile: <a href=\"StructureDefinition-ng-medication.html\">NG Medication</a></p></div><p><b>code</b>: <span title=\"Codes:{http://www.nafdac.gov.ng/research/umls/rxnorm 723}\">Amoxicillin 250mg Capsule</span></p><p><b>status</b>: Active</p><p><b>form</b>: <span title=\"Codes:{http://terminology.hl7.org/CodeSystem/medication-form cap}\">Capsule</span></p><h3>Ingredients</h3><table class=\"grid\"><tr><td style=\"display: none\">-</td><td><b>Item[x]</b></td><td><b>Strength</b></td></tr><tr><td style=\"display: none\">*</td><td><span title=\"Codes:{http://snomed.info/sct 372687004}\">Amoxicillin (substance)</span></td><td>250 mg/1 capsule</td></tr></table></div>"
      },
      "code" : {
        "coding" : [{
          "system" : "http://www.nafdac.gov.ng/research/umls/rxnorm",
          "code" : "723",
          "display" : "Amoxicillin 250mg Capsule"
        }]
      },
      "status" : "active",
      "form" : {
        "coding" : [{
          "system" : "http://terminology.hl7.org/CodeSystem/medication-form",
          "code" : "cap",
          "display" : "Capsule"
        }]
      },
      "ingredient" : [{
        "itemCodeableConcept" : {
          "coding" : [{
            "system" : "http://snomed.info/sct",
            "code" : "372687004",
            "display" : "Amoxicillin (substance)"
          }]
        },
        "strength" : {
          "numerator" : {
            "value" : 250,
            "unit" : "mg"
          },
          "denominator" : {
            "value" : 1,
            "unit" : "capsule"
          }
        }
      }]
    }
  },
  {
    "fullUrl" : "urn:uuid:provenance-001",
    "resource" : {
      "resourceType" : "Provenance",
      "id" : "provenance-001",
      "meta" : {
        "profile" : ["https://dhin.org/2025Connectathon/StructureDefinition/ng-provenance"]
      },
      "text" : {
        "status" : "generated",
        "div" : "<div xmlns=\"http://www.w3.org/1999/xhtml\"><a name=\"Provenance_provenance-001\"> </a><p class=\"res-header-id\"><b>Generated Narrative: Provenance provenance-001</b></p><a name=\"provenance-001\"> </a><a name=\"hcprovenance-001\"> </a><div style=\"display: inline-block; background-color: #d9e0e7; padding: 6px; margin: 4px; border: 1px solid #8da1b4; border-radius: 5px; line-height: 60%\"><p style=\"margin-bottom: 0px\"/><p style=\"margin-bottom: 0px\">Profile: <a href=\"StructureDefinition-ng-provenance.html\">NG Provenance</a></p></div><p>Provenance for <a href=\"MedicationRequest/example-medication-request\">MedicationRequest/example-medication-request</a></p><p>Summary</p><table class=\"grid\"><tr><td>Recorded</td><td>2025-08-05 08:45:00+0100</td></tr><tr><td>Location</td><td><a href=\"Location-example-location.html\">Location Gwagwalada Community Pharmacy</a></td></tr><tr><td>Activity</td><td><span title=\"Codes:{http://terminology.hl7.org/CodeSystem/v3-DataOperation CREATE}\">create</span></td></tr></table><p><b>Agents</b></p><table class=\"grid\"><tr><td><b>Type</b></td><td><b>who</b></td><td><b>On Behalf Of</b></td></tr><tr><td><span title=\"Codes:{http://terminology.hl7.org/CodeSystem/provenance-participant-type author}\">Author</span></td><td><a href=\"Practitioner-practitioner-001.html\">Practitioner Chinelo Okoye </a></td><td><a href=\"Organization/org-hospital\">Organization/org-hospital</a></td></tr></table></div>"
      },
      "target" : [{
        "reference" : "MedicationRequest/example-medication-request"
      }],
      "recorded" : "2025-08-05T08:45:00+01:00",
      "location" : {
        "reference" : "Location/example-location"
      },
      "activity" : {
        "coding" : [{
          "system" : "http://terminology.hl7.org/CodeSystem/v3-DataOperation",
          "code" : "CREATE",
          "display" : "create"
        }]
      },
      "agent" : [{
        "type" : {
          "coding" : [{
            "system" : "http://terminology.hl7.org/CodeSystem/provenance-participant-type",
            "code" : "author",
            "display" : "Author"
          }]
        },
        "who" : {
          "reference" : "Practitioner/practitioner-001"
        },
        "onBehalfOf" : {
          "reference" : "Organization/org-hospital"
        }
      }]
    }
  },
  {
    "fullUrl" : "urn:uuid:audit-001",
    "resource" : {
      "resourceType" : "AuditEvent",
      "id" : "audit-001",
      "meta" : {
        "profile" : ["https://dhin.org/2025Connectathon/StructureDefinition/ng-audit-event"]
      },
      "text" : {
        "status" : "generated",
        "div" : "<div xmlns=\"http://www.w3.org/1999/xhtml\"><a name=\"AuditEvent_audit-001\"> </a><p class=\"res-header-id\"><b>Generated Narrative: AuditEvent audit-001</b></p><a name=\"audit-001\"> </a><a name=\"hcaudit-001\"> </a><div style=\"display: inline-block; background-color: #d9e0e7; padding: 6px; margin: 4px; border: 1px solid #8da1b4; border-radius: 5px; line-height: 60%\"><p style=\"margin-bottom: 0px\"/><p style=\"margin-bottom: 0px\">Profile: <a href=\"StructureDefinition-ng-audit-event.html\">NG AuditEvent</a></p></div><p><b>type</b>: <a href=\"http://terminology.hl7.org/6.5.0/CodeSystem-audit-event-type.html#audit-event-type-rest\">Audit Event ID rest</a>: RESTful Operation</p><p><b>subtype</b>: <a href=\"http://hl7.org/fhir/R4/codesystem-restful-interaction.html#restful-interaction-read\">FHIR Restful Interactions read</a>: read</p><p><b>action</b>: Read/View/Print</p><p><b>recorded</b>: 2025-08-05 09:15:00+0100</p><p><b>outcome</b>: Success</p><h3>Agents</h3><table class=\"grid\"><tr><td style=\"display: none\">-</td><td><b>Who</b></td><td><b>Requestor</b></td></tr><tr><td style=\"display: none\">*</td><td><a href=\"Practitioner-practitioner-001.html\">Practitioner Chinelo Okoye </a></td><td>true</td></tr></table><h3>Sources</h3><table class=\"grid\"><tr><td style=\"display: none\">-</td><td><b>Site</b></td><td><b>Observer</b></td></tr><tr><td style=\"display: none\">*</td><td>Hospital EMR</td><td><a href=\"Organization/org-hospital\">Organization/org-hospital</a></td></tr></table><h3>Entities</h3><table class=\"grid\"><tr><td style=\"display: none\">-</td><td><b>What</b></td><td><b>Type</b></td></tr><tr><td style=\"display: none\">*</td><td><a href=\"MedicationRequest/example-medication-request\">MedicationRequest/example-medication-request</a></td><td>[not stated] 2: System Object</td></tr></table></div>"
      },
      "type" : {
        "system" : "http://terminology.hl7.org/CodeSystem/audit-event-type",
        "code" : "rest",
        "display" : "RESTful Operation"
      },
      "subtype" : [{
        "system" : "http://hl7.org/fhir/restful-interaction",
        "code" : "read",
        "display" : "read"
      }],
      "action" : "R",
      "recorded" : "2025-08-05T09:15:00+01:00",
      "outcome" : "0",
      "agent" : [{
        "who" : {
          "reference" : "Practitioner/practitioner-001"
        },
        "requestor" : true
      }],
      "source" : {
        "site" : "Hospital EMR",
        "observer" : {
          "reference" : "Organization/org-hospital"
        }
      },
      "entity" : [{
        "what" : {
          "reference" : "MedicationRequest/example-medication-request"
        },
        "type" : {
          "code" : "2",
          "display" : "System Object"
        }
      }]
    }
  }]
}