<?xml version="1.0" encoding="UTF-8"?>

<Bundle xmlns="http://hl7.org/fhir">
  <id value="example-prescription-bundle"/>
  <meta>
    <profile value="https://dhin.org/2025Connectathon/StructureDefinition/ng-prescription-bundle"/>
  </meta>
  <type value="collection"/>
  <timestamp value="2025-08-06T08:30:00+01:00"/>
  <entry>
    <fullUrl value="urn:uuid:patient-001"/>
    <resource>
      <Patient>
        <id value="patient-001"/>
        <meta>
          <lastUpdated value="2025-07-30T10:20:00+01:00"/>
          <profile value="https://dhin.org/2025Connectathon/StructureDefinition/NgPatient"/>
        </meta>
        <text>
          <status value="generated"/><div xmlns="http://www.w3.org/1999/xhtml"><a name="Patient_patient-001"> </a><p class="res-header-id"><b>Generated Narrative: Patient patient-001</b></p><a name="patient-001"> </a><a name="hcpatient-001"> </a><div style="display: inline-block; background-color: #d9e0e7; padding: 6px; margin: 4px; border: 1px solid #8da1b4; border-radius: 5px; line-height: 60%"><p style="margin-bottom: 0px">Last updated: 2025-07-30 10:20:00+0100</p><p style="margin-bottom: 0px">Profile: <a href="StructureDefinition-NgPatient.html">NG Patient</a></p></div><p style="border: 1px #661aff solid; background-color: #e6e6ff; padding: 10px;">Chinedu Okoro  Male, DoB: 1990-06-15 ( https://nimc.gov.ng#NIN123456789)</p><hr/><table class="grid"><tr><td style="background-color: #f3f5da" title="Record is active">Active:</td><td colspan="3">true</td></tr><tr><td style="background-color: #f3f5da" title="Ways to contact the Patient">Contact Detail</td><td colspan="3">23 Market Road Nsukka Enugu </td></tr><tr><td style="background-color: #f3f5da" title="Language spoken">Language:</td><td colspan="3"><span title="Codes:{urn:ietf:bcp:47 ig}">Igbo</span></td></tr><tr><td style="background-color: #f3f5da" title="Patient contact">Contact:</td><td colspan="3"><ul><li>Ngozi Okoro </li><li>23 Market Road Nsukka Enugu </li><li><a href="tel:+2348123456789">+2348123456789</a></li></ul></td></tr></table></div>
        </text>
        <identifier>
          <system value="https://nimc.gov.ng"/>
          <value value="NIN123456789"/>
        </identifier>
        <active value="true"/>
        <name>
          <family value="Okoro"/>
          <given value="Chinedu"/>
        </name>
        <gender value="male"/>
        <birthDate value="1990-06-15"/>
        <address>
          <line value="23 Market Road"/>
          <city value="Nsukka"/>
          <district value="nsukka"/>
          <state value="Enugu"/>
        </address>
        <photo>
          <contentType value="image/jpeg"/>
          <url value="https://example.org/patient-photos/chinedu-okoro.jpg"/>
          <size value="245600"/>
          <title value="Chinedu Okoro profile photo"/>
        </photo>
        <contact>
          <name>
            <family value="Okoro"/>
            <given value="Ngozi"/>
          </name>
          <telecom>
            <system value="phone"/>
            <value value="+2348123456789"/>
          </telecom>
          <address>
            <line value="23 Market Road"/>
            <city value="Nsukka"/>
            <district value="nsukka"/>
            <state value="Enugu"/>
          </address>
        </contact>
        <communication>
          <language>
            <coding>
              <system value="urn:ietf:bcp:47"/>
              <code value="ig"/>
              <display value="Igbo"/>
            </coding>
          </language>
        </communication>
      </Patient>
    </resource>
  </entry>
  <entry>
    <fullUrl value="urn:uuid:medicationrequest-001"/>
    <resource>
      <MedicationRequest>
        <id value="medicationrequest-001"/>
        <meta>
          <profile value="https://dhin.org/2025Connectathon/StructureDefinition/ng-medication-request"/>
        </meta>
        <text>
          <status value="generated"/><div xmlns="http://www.w3.org/1999/xhtml"><a name="MedicationRequest_medicationrequest-001"> </a><p class="res-header-id"><b>Generated Narrative: MedicationRequest medicationrequest-001</b></p><a name="medicationrequest-001"> </a><a name="hcmedicationrequest-001"> </a><div style="display: inline-block; background-color: #d9e0e7; padding: 6px; margin: 4px; border: 1px solid #8da1b4; border-radius: 5px; line-height: 60%"><p style="margin-bottom: 0px"/><p style="margin-bottom: 0px">Profile: <a href="StructureDefinition-ng-medication-request.html">NG MedicationRequest</a></p></div><p><b>status</b>: Active</p><p><b>intent</b>: Order</p><p><b>medication</b>: <span title="Codes:{http://www.nlm.nih.gov/research/umls/rxnorm 723}">Amoxicillin 250mg Capsule</span></p><p><b>subject</b>: <code>NgPatient/patient-001</code></p><p><b>encounter</b>: <code>NgEncounter/encounter-001</code></p><p><b>authoredOn</b>: 2025-08-05</p><p><b>requester</b>: <code>NgPractitioner/practitioner-001</code></p><p><b>recorder</b>: <code>NgPractitioner/practitioner-001</code></p><blockquote><p><b>dosageInstruction</b></p><p><b>text</b>: Take one capsule three times a day for 7 days</p><p><b>timing</b>: 3 per 1 day</p><h3>DoseAndRates</h3><table class="grid"><tr><td style="display: none">-</td><td><b>Dose[x]</b></td></tr><tr><td style="display: none">*</td><td>1 capsule</td></tr></table></blockquote><h3>DispenseRequests</h3><table class="grid"><tr><td style="display: none">-</td><td><b>ValidityPeriod</b></td><td><b>Quantity</b></td></tr><tr><td style="display: none">*</td><td>2025-08-05 --&gt; 2025-08-12</td><td>21 capsule</td></tr></table></div>
        </text>
        <status value="active"/>
        <intent value="order"/>
        <medicationCodeableConcept>
          <coding>
            <system value="http://www.nlm.nih.gov/research/umls/rxnorm"/>
            <code value="723"/>
            <display value="Amoxicillin 250mg Capsule"/>
          </coding>
        </medicationCodeableConcept>
        <subject>
          <reference value="NgPatient/patient-001"/>
        </subject>
        <encounter>
          <reference value="NgEncounter/encounter-001"/>
        </encounter>
        <authoredOn value="2025-08-05"/>
        <requester>
          <reference value="NgPractitioner/practitioner-001"/>
        </requester>
        <recorder>
          <reference value="NgPractitioner/practitioner-001"/>
        </recorder>
        <dosageInstruction>
          <text value="Take one capsule three times a day for 7 days"/>
          <timing>
            <repeat>
              <frequency value="3"/>
              <period value="1"/>
              <periodUnit value="d"/>
            </repeat>
          </timing>
          <doseAndRate>
            <doseQuantity>
              <value value="1"/>
              <unit value="capsule"/>
            </doseQuantity>
          </doseAndRate>
        </dosageInstruction>
        <dispenseRequest>
          <validityPeriod>
            <start value="2025-08-05"/>
            <end value="2025-08-12"/>
          </validityPeriod>
          <quantity>
            <value value="21"/>
            <unit value="capsule"/>
          </quantity>
        </dispenseRequest>
      </MedicationRequest>
    </resource>
  </entry>
  <entry>
    <fullUrl value="urn:uuid:practitioner-001"/>
    <resource>
      <Practitioner>
        <id value="practitioner-001"/>
        <meta>
          <profile value="https://dhin.org/2025Connectathon/StructureDefinition/NgPractitioner"/>
        </meta>
        <text>
          <status value="generated"/><div xmlns="http://www.w3.org/1999/xhtml"><a name="Practitioner_practitioner-001"> </a><p class="res-header-id"><b>Generated Narrative: Practitioner practitioner-001</b></p><a name="practitioner-001"> </a><a name="hcpractitioner-001"> </a><div style="display: inline-block; background-color: #d9e0e7; padding: 6px; margin: 4px; border: 1px solid #8da1b4; border-radius: 5px; line-height: 60%"><p style="margin-bottom: 0px"/><p style="margin-bottom: 0px">Profile: <a href="StructureDefinition-NgPractitioner.html">NG Practitioner</a></p></div><p><b>identifier</b>: <code>https://mdcn.gov.ng</code>/MDCN-457812</p><p><b>active</b>: true</p><p><b>name</b>: Chinelo Okoye </p><p><b>telecom</b>: ph: 08011223344</p><p><b>birthDate</b>: 1982-03-10</p><h3>Qualifications</h3><table class="grid"><tr><td style="display: none">-</td><td><b>Code</b></td><td><b>Period</b></td><td><b>Issuer</b></td></tr><tr><td style="display: none">*</td><td><span title="Codes:">MEDCERT-2023</span></td><td>2023-01-01 --&gt; 2028-12-31</td><td><a href="Organization-organization-001.html">Organization Sunlight Medical Center</a></td></tr></table></div>
        </text>
        <identifier>
          <system value="https://mdcn.gov.ng"/>
          <value value="MDCN-457812"/>
        </identifier>
        <active value="true"/>
        <name>
          <family value="Okoye"/>
          <given value="Chinelo"/>
        </name>
        <telecom>
          <system value="phone"/>
          <value value="08011223344"/>
        </telecom>
        <birthDate value="1982-03-10"/>
        <qualification>
          <code>
            <text value="MEDCERT-2023"/>
          </code>
          <period>
            <start value="2023-01-01"/>
            <end value="2028-12-31"/>
          </period>
          <issuer>
            <reference value="Organization/organization-001"/>
          </issuer>
        </qualification>
      </Practitioner>
    </resource>
  </entry>
  <entry>
    <fullUrl value="urn:uuid:organization-001"/>
    <resource>
      <Organization>
        <id value="organization-001"/>
        <meta>
          <profile value="https://dhin.org/2025Connectathon/StructureDefinition/ng-imm-organization"/>
        </meta>
        <text>
          <status value="generated"/><div xmlns="http://www.w3.org/1999/xhtml"><a name="Organization_organization-001"> </a><p class="res-header-id"><b>Generated Narrative: Organization organization-001</b></p><a name="organization-001"> </a><a name="hcorganization-001"> </a><div style="display: inline-block; background-color: #d9e0e7; padding: 6px; margin: 4px; border: 1px solid #8da1b4; border-radius: 5px; line-height: 60%"><p style="margin-bottom: 0px"/><p style="margin-bottom: 0px">Profile: <a href="StructureDefinition-ng-imm-organization.html">NG Organization</a></p></div><p><b>identifier</b>: <code>https://herfama.lagos.ng</code>/HF-0001</p><p><b>active</b>: true</p><p><b>type</b>: <span title="Codes:{http://terminology.hl7.org/CodeSystem/organization-type prov}">Healthcare Provider</span></p><p><b>name</b>: Sunlight Medical Center</p><p><b>telecom</b>: <a href="tel:+2348012345678">+2348012345678</a></p><p><b>address</b>: 12 Ikoyi Crescent Lagos Lagos </p></div>
        </text>
        <identifier>
          <system value="https://herfama.lagos.ng"/>
          <value value="HF-0001"/>
        </identifier>
        <active value="true"/>
        <type>
          <coding>
            <system value="http://terminology.hl7.org/CodeSystem/organization-type"/>
            <code value="prov"/>
            <display value="Healthcare Provider"/>
          </coding>
        </type>
        <name value="Sunlight Medical Center"/>
        <telecom>
          <system value="phone"/>
          <value value="+2348012345678"/>
        </telecom>
        <address>
          <line value="12 Ikoyi Crescent"/>
          <city value="Lagos"/>
          <district value="ikeja"/>
          <state value="Lagos"/>
        </address>
      </Organization>
    </resource>
  </entry>
  <entry>
    <fullUrl value="urn:uuid:medication-001"/>
    <resource>
      <Medication>
        <id value="medication-001"/>
        <meta>
          <profile value="https://dhin.org/2025Connectathon/StructureDefinition/ng-medication"/>
        </meta>
        <text>
          <status value="generated"/><div xmlns="http://www.w3.org/1999/xhtml"><a name="Medication_medication-001"> </a><p class="res-header-id"><b>Generated Narrative: Medication medication-001</b></p><a name="medication-001"> </a><a name="hcmedication-001"> </a><div style="display: inline-block; background-color: #d9e0e7; padding: 6px; margin: 4px; border: 1px solid #8da1b4; border-radius: 5px; line-height: 60%"><p style="margin-bottom: 0px"/><p style="margin-bottom: 0px">Profile: <a href="StructureDefinition-ng-medication.html">NG Medication</a></p></div><p><b>code</b>: <span title="Codes:{http://www.nafdac.gov.ng/research/umls/rxnorm 723}">Amoxicillin 250mg Capsule</span></p><p><b>status</b>: Active</p><p><b>form</b>: <span title="Codes:{http://terminology.hl7.org/CodeSystem/medication-form cap}">Capsule</span></p><h3>Ingredients</h3><table class="grid"><tr><td style="display: none">-</td><td><b>Item[x]</b></td><td><b>Strength</b></td></tr><tr><td style="display: none">*</td><td><span title="Codes:{http://snomed.info/sct 372687004}">Amoxicillin (substance)</span></td><td>250 mg/1 capsule</td></tr></table></div>
        </text>
        <code>
          <coding>
            <system value="http://www.nafdac.gov.ng/research/umls/rxnorm"/>
            <code value="723"/>
            <display value="Amoxicillin 250mg Capsule"/>
          </coding>
        </code>
        <status value="active"/>
        <form>
          <coding>
            <system value="http://terminology.hl7.org/CodeSystem/medication-form"/>
            <code value="cap"/>
            <display value="Capsule"/>
          </coding>
        </form>
        <ingredient>
          <itemCodeableConcept>
            <coding>
              <system value="http://snomed.info/sct"/>
              <code value="372687004"/>
              <display value="Amoxicillin (substance)"/>
            </coding>
          </itemCodeableConcept>
          <strength>
            <numerator>
              <value value="250"/>
              <unit value="mg"/>
            </numerator>
            <denominator>
              <value value="1"/>
              <unit value="capsule"/>
            </denominator>
          </strength>
        </ingredient>
      </Medication>
    </resource>
  </entry>
  <entry>
    <fullUrl value="urn:uuid:condition-001"/>
    <resource>
      <Condition>
        <id value="condition-001"/>
        <meta>
          <profile value="https://dhin.org/2025Connectathon/StructureDefinition/ng-condition"/>
        </meta>
        <text>
          <status value="generated"/><div xmlns="http://www.w3.org/1999/xhtml"><a name="Condition_condition-001"> </a><p class="res-header-id"><b>Generated Narrative: Condition condition-001</b></p><a name="condition-001"> </a><a name="hccondition-001"> </a><div style="display: inline-block; background-color: #d9e0e7; padding: 6px; margin: 4px; border: 1px solid #8da1b4; border-radius: 5px; line-height: 60%"><p style="margin-bottom: 0px"/><p style="margin-bottom: 0px">Profile: <a href="StructureDefinition-ng-condition.html">NG Condition</a></p></div><p><b>clinicalStatus</b>: <span title="Codes:{http://terminology.hl7.org/CodeSystem/condition-clinical active}">Active</span></p><p><b>verificationStatus</b>: <span title="Codes:{http://terminology.hl7.org/CodeSystem/condition-ver-status confirmed}">Confirmed</span></p><p><b>category</b>: <span title="Codes:{http://terminology.hl7.org/CodeSystem/condition-category encounter-diagnosis}">Encounter Diagnosis</span></p><p><b>code</b>: <span title="Codes:{http://snomed.info/sct 65363002}">Otitis media</span></p><p><b>subject</b>: <a href="Patient-patient-001.html">Chinedu Okoro  Male, DoB: 1990-06-15 ( https://nimc.gov.ng#NIN123456789)</a></p><p><b>onset</b>: 2025-08-04</p><p><b>recordedDate</b>: 2025-08-04</p><p><b>recorder</b>: <a href="Practitioner-practitioner-001.html">Practitioner Chinelo Okoye </a></p></div>
        </text>
        <clinicalStatus>
          <coding>
            <system value="http://terminology.hl7.org/CodeSystem/condition-clinical"/>
            <code value="active"/>
          </coding>
        </clinicalStatus>
        <verificationStatus>
          <coding>
            <system value="http://terminology.hl7.org/CodeSystem/condition-ver-status"/>
            <code value="confirmed"/>
          </coding>
        </verificationStatus>
        <category>
          <coding>
            <system value="http://terminology.hl7.org/CodeSystem/condition-category"/>
            <code value="encounter-diagnosis"/>
          </coding>
        </category>
        <code>
          <coding>
            <system value="http://snomed.info/sct"/>
            <code value="65363002"/>
            <display value="Otitis media"/>
          </coding>
        </code>
        <subject>
          <reference value="Patient/patient-001"/>
        </subject>
        <onsetDateTime value="2025-08-04"/>
        <recordedDate value="2025-08-04"/>
        <recorder>
          <reference value="Practitioner/practitioner-001"/>
        </recorder>
      </Condition>
    </resource>
  </entry>
  <entry>
    <fullUrl value="urn:uuid:encounter-001"/>
    <resource>
      <Encounter>
        <id value="encounter-001"/>
        <meta>
          <profile value="https://dhin.org/2025Connectathon/StructureDefinition/ng-prescription-encounter"/>
        </meta>
        <text>
          <status value="generated"/><div xmlns="http://www.w3.org/1999/xhtml"><a name="Encounter_encounter-001"> </a><p class="res-header-id"><b>Generated Narrative: Encounter encounter-001</b></p><a name="encounter-001"> </a><a name="hcencounter-001"> </a><div style="display: inline-block; background-color: #d9e0e7; padding: 6px; margin: 4px; border: 1px solid #8da1b4; border-radius: 5px; line-height: 60%"><p style="margin-bottom: 0px"/><p style="margin-bottom: 0px">Profile: <a href="StructureDefinition-ng-prescription-encounter.html">NG Encounter</a></p></div><p><b>status</b>: Finished</p><p><b>class</b>: <a href="http://terminology.hl7.org/6.5.0/CodeSystem-v3-ActCode.html#v3-ActCode-AMB">ActCode AMB</a>: ambulatory</p><p><b>subject</b>: <a href="Patient-patient-001.html">Chinedu Okoro  Male, DoB: 1990-06-15 ( https://nimc.gov.ng#NIN123456789)</a></p><p><b>period</b>: 2025-08-04 09:00:00+0100 --&gt; 2025-08-04 09:20:00+0100</p><p><b>reasonCode</b>: <span title="Codes:{http://snomed.info/sct 65363002}">Otitis media</span></p><p><b>serviceProvider</b>: <a href="Organization/org-hospital">Organization/org-hospital</a></p></div>
        </text>
        <status value="finished"/>
        <class>
          <system value="http://terminology.hl7.org/CodeSystem/v3-ActCode"/>
          <code value="AMB"/>
          <display value="ambulatory"/>
        </class>
        <subject>
          <reference value="Patient/patient-001"/>
        </subject>
        <period>
          <start value="2025-08-04T09:00:00+01:00"/>
          <end value="2025-08-04T09:20:00+01:00"/>
        </period>
        <reasonCode>
          <coding>
            <system value="http://snomed.info/sct"/>
            <code value="65363002"/>
            <display value="Otitis media"/>
          </coding>
        </reasonCode>
        <serviceProvider>
          <reference value="Organization/org-hospital"/>
        </serviceProvider>
      </Encounter>
    </resource>
  </entry>
  <entry>
    <fullUrl value="urn:uuid:provenance-001"/>
    <resource>
      <Provenance>
        <id value="provenance-001"/>
        <meta>
          <profile value="https://dhin.org/2025Connectathon/StructureDefinition/ng-provenance"/>
        </meta>
        <text>
          <status value="generated"/><div xmlns="http://www.w3.org/1999/xhtml"><a name="Provenance_provenance-001"> </a><p class="res-header-id"><b>Generated Narrative: Provenance provenance-001</b></p><a name="provenance-001"> </a><a name="hcprovenance-001"> </a><div style="display: inline-block; background-color: #d9e0e7; padding: 6px; margin: 4px; border: 1px solid #8da1b4; border-radius: 5px; line-height: 60%"><p style="margin-bottom: 0px"/><p style="margin-bottom: 0px">Profile: <a href="StructureDefinition-ng-provenance.html">NG Provenance</a></p></div><p>Provenance for <a href="MedicationRequest/example-medication-request">MedicationRequest/example-medication-request</a></p><p>Summary</p><table class="grid"><tr><td>Recorded</td><td>2025-08-05 08:45:00+0100</td></tr><tr><td>Location</td><td><a href="Location-example-location.html">Location Gwagwalada Community Pharmacy</a></td></tr><tr><td>Activity</td><td><span title="Codes:{http://terminology.hl7.org/CodeSystem/v3-DataOperation CREATE}">create</span></td></tr></table><p><b>Agents</b></p><table class="grid"><tr><td><b>Type</b></td><td><b>who</b></td><td><b>On Behalf Of</b></td></tr><tr><td><span title="Codes:{http://terminology.hl7.org/CodeSystem/provenance-participant-type author}">Author</span></td><td><a href="Practitioner-practitioner-001.html">Practitioner Chinelo Okoye </a></td><td><a href="Organization/org-hospital">Organization/org-hospital</a></td></tr></table></div>
        </text>
        <target>
          <reference value="MedicationRequest/example-medication-request"/>
        </target>
        <recorded value="2025-08-05T08:45:00+01:00"/>
        <location>
          <reference value="Location/example-location"/>
        </location>
        <activity>
          <coding>
            <system value="http://terminology.hl7.org/CodeSystem/v3-DataOperation"/>
            <code value="CREATE"/>
            <display value="create"/>
          </coding>
        </activity>
        <agent>
          <type>
            <coding>
              <system value="http://terminology.hl7.org/CodeSystem/provenance-participant-type"/>
              <code value="author"/>
              <display value="Author"/>
            </coding>
          </type>
          <who>
            <reference value="Practitioner/practitioner-001"/>
          </who>
          <onBehalfOf>
            <reference value="Organization/org-hospital"/>
          </onBehalfOf>
        </agent>
      </Provenance>
    </resource>
  </entry>
</Bundle>